{
  "id": "44420ed9-7388-4be5-acc5-9c124fad9f34",
  "timestamp": "2024-05-20T08:30:00Z",
  "meta": {
    "profile": [
      "https://fhir.kbv.de/StructureDefinition/KBV_PR_ERP_Bundle|1.4"
    ],
    "versionId": "1"
  },
  "identifier": {
    "value": "160.100.000.000.006.24",
    "system": "https://gematik.de/fhir/erp/NamingSystem/GEM_ERP_NS_PrescriptionId"
  },
  "entry": [
    {
      "fullUrl": "urn:uuid:6ac6d8bc-3acd-4e31-ad9b-442fc343c6c0",
      "resource": {
        "id": "6ac6d8bc-3acd-4e31-ad9b-442fc343c6c0",
        "title": "elektronische Arzneimittelverordnung",
        "author": [
          {
            "reference": "urn:uuid:bc329f24-3d65-4286-bf06-b54dd6cad655",
            "type": "Practitioner"
          },
          {
            "type": "Device",
            "identifier": {
              "value": "Y/400/2107/36/999",
              "system": "https://fhir.kbv.de/NamingSystem/KBV_NS_FOR_Pruefnummer"
            }
          }
        ],
        "date": "2024-05-20T08:00:00Z",
        "extension": [
          {
            "url": "https://fhir.kbv.de/StructureDefinition/KBV_EX_FOR_Legal_basis",
            "valueCoding": {
              "code": "00",
              "system": "https://fhir.kbv.de/CodeSystem/KBV_CS_SFHIR_KBV_STATUSKENNZEICHEN"
            }
          }
        ],
        "section": [
          {
            "entry": [
              {
                "reference": "urn:uuid:000abe24-f690-481e-9a9f-1cd0eb434e2f"
              }
            ],
            "code": {
              "coding": [
                {
                  "code": "Prescription",
                  "system": "https://fhir.kbv.de/CodeSystem/KBV_CS_ERP_Section_Type"
                }
              ]
            }
          },
          {
            "entry": [
              {
                "reference": "urn:uuid:1b89236c-ab14-4e92-937e-5af0b59d0cd4"
              }
            ],
            "code": {
              "coding": [
                {
                  "code": "Coverage",
                  "system": "https://fhir.kbv.de/CodeSystem/KBV_CS_ERP_Section_Type"
                }
              ]
            }
          }
        ],
        "type": {
          "coding": [
            {
              "code": "e16A",
              "system": "https://fhir.kbv.de/CodeSystem/KBV_CS_SFHIR_KBV_FORMULAR_ART"
            }
          ]
        },
        "meta": {
          "profile": [
            "https://fhir.kbv.de/StructureDefinition/KBV_PR_ERP_Composition|1.4"
          ],
          "versionId": "1"
        },
        "status": "final",
        "subject": {
          "reference": "urn:uuid:93866fdc-3e50-4902-a7e9-891b54737b5e"
        },
        "resourceType": "Composition",
        "custodian": {
          "reference": "urn:uuid:5d3f4ac0-2b44-4d48-b363-e63efa72973b"
        }
      }
    },
    {
      "fullUrl": "urn:uuid:000abe24-f690-481e-9a9f-1cd0eb434e2f",
      "resource": {
        "id": "000abe24-f690-481e-9a9f-1cd0eb434e2f",
        "intent": "order",
        "substitution": {
          "allowedBoolean": true
        },
        "dispenseRequest": {
          "quantity": {
            "unit": "Packung",
            "value": 1
          }
        },
        "insurance": [
          {
            "reference": "urn:uuid:1b89236c-ab14-4e92-937e-5af0b59d0cd4"
          }
        ],
        "extension": [
          {
            "url": "https://fhir.kbv.de/StructureDefinition/KBV_EX_FOR_StatusCoPayment",
            "valueCoding": {
              "code": "0",
              "system": "https://fhir.kbv.de/CodeSystem/KBV_CS_FOR_StatusCoPayment"
            }
          },
          {
            "url": "https://fhir.kbv.de/StructureDefinition/KBV_EX_ERP_EmergencyServicesFee",
            "valueBoolean": false
          },
          {
            "url": "https://fhir.kbv.de/StructureDefinition/KBV_EX_FOR_SER",
            "valueBoolean": false
          },
          {
            "url": "https://fhir.kbv.de/StructureDefinition/KBV_EX_ERP_Multiple_Prescription",
            "extension": [
              {
                "url": "Kennzeichen",
                "valueBoolean": false
              }
            ]
          },
          {
            "url": "https://fhir.kbv.de/StructureDefinition/KBV_EX_ERP_DosageFlag",
            "valueBoolean": false
          }
        ],
        "medicationReference": {
          "reference": "urn:uuid:47076fb4-dc5c-4f75-85f6-b200033b3280"
        },
        "basedOn": [
          {
            "identifier": {
              "value": "8cc8e04b-6df7-43b5-b847-508268e95ba7",
              "system": "https://gematik.de/fhir/sid/emp-identifier"
            }
          }
        ],
        "authoredOn": "2024-05-20",
        "meta": {
          "profile": [
            "https://fhir.kbv.de/StructureDefinition/KBV_PR_ERP_Prescription|1.4"
          ],
          "versionId": "1"
        },
        "status": "active",
        "requester": {
          "reference": "urn:uuid:bc329f24-3d65-4286-bf06-b54dd6cad655"
        },
        "resourceType": "MedicationRequest",
        "subject": {
          "reference": "urn:uuid:93866fdc-3e50-4902-a7e9-891b54737b5e"
        }
      }
    },
    {
      "fullUrl": "urn:uuid:47076fb4-dc5c-4f75-85f6-b200033b3280",
      "resource": {
        "id": "47076fb4-dc5c-4f75-85f6-b200033b3280",
        "ingredient": [
          {
            "strength": {
              "denominator": {
                "unit": "Stück",
                "value": 1
              },
              "numerator": {
                "unit": "mg",
                "value": 50
              }
            },
            "itemCodeableConcept": {
              "text": "Sitagliptin",
              "coding": [
                {
                  "code": "34150",
                  "system": "http://fhir.de/CodeSystem/ask"
                }
              ]
            }
          }
        ],
        "meta": {
          "profile": [
            "https://fhir.kbv.de/StructureDefinition/KBV_PR_ERP_Medication_PZN|1.4"
          ],
          "versionId": "1"
        },
        "form": {
          "coding": [
            {
              "code": "FTA",
              "system": "https://fhir.kbv.de/CodeSystem/KBV_CS_SFHIR_KBV_DARREICHUNGSFORM"
            }
          ]
        },
        "code": {
          "text": "Januvia® 50 mg 28 Filmtabletten N1",
          "coding": [
            {
              "code": "00814665",
              "system": "http://fhir.de/CodeSystem/ifa/pzn"
            }
          ]
        },
        "resourceType": "Medication",
        "extension": [
          {
            "url": "https://fhir.kbv.de/StructureDefinition/KBV_EX_Base_Medication_Type",
            "valueCodeableConcept": {
              "coding": [
                {
                  "display": "Medicinal product (product)",
                  "system": "http://snomed.info/sct",
                  "version": "http://snomed.info/sct/11000274103/version/20240515",
                  "code": "763158003"
                }
              ]
            }
          },
          {
            "url": "https://fhir.kbv.de/StructureDefinition/KBV_EX_ERP_Medication_Category",
            "valueCoding": {
              "code": "00",
              "system": "https://fhir.kbv.de/CodeSystem/KBV_CS_ERP_Medication_Category"
            }
          },
          {
            "url": "https://fhir.kbv.de/StructureDefinition/KBV_EX_ERP_Medication_Vaccine",
            "valueBoolean": false
          },
          {
            "url": "http://fhir.de/StructureDefinition/normgroesse",
            "valueCode": "N1"
          }
        ]
      }
    },
    {
      "fullUrl": "urn:uuid:93866fdc-3e50-4902-a7e9-891b54737b5e",
      "resource": {
        "id": "93866fdc-3e50-4902-a7e9-891b54737b5e",
        "address": [
          {
            "country": "D",
            "line": [
              "Blumenweg"
            ],
            "postalCode": "26427",
            "_line": [
              {
                "extension": [
                  {
                    "url": "http://hl7.org/fhir/StructureDefinition/iso21090-ADXP-streetName",
                    "valueString": "Blumenweg"
                  }
                ]
              }
            ],
            "type": "both",
            "city": "Esens"
          }
        ],
        "meta": {
          "profile": [
            "https://fhir.kbv.de/StructureDefinition/KBV_PR_FOR_Patient|1.3"
          ],
          "versionId": "1"
        },
        "identifier": [
          {
            "system": "http://fhir.de/sid/gkv/kvid-10",
            "type": {
              "coding": [
                {
                  "code": "KVZ10",
                  "system": "http://fhir.de/CodeSystem/identifier-type-de-basis"
                }
              ]
            },
            "value": "K220635158"
          }
        ],
        "birthDate": "1935-06-22",
        "resourceType": "Patient",
        "name": [
          {
            "family": "Königsstein",
            "given": [
              "Ludger"
            ],
            "use": "official",
            "_family": {
              "extension": [
                {
                  "url": "http://hl7.org/fhir/StructureDefinition/humanname-own-name",
                  "valueString": "Königsstein"
                }
              ]
            }
          }
        ]
      }
    },
    {
      "fullUrl": "urn:uuid:bc329f24-3d65-4286-bf06-b54dd6cad655",
      "resource": {
        "id": "bc329f24-3d65-4286-bf06-b54dd6cad655",
        "meta": {
          "profile": [
            "https://fhir.kbv.de/StructureDefinition/KBV_PR_FOR_Practitioner|1.3"
          ],
          "versionId": "1"
        },
        "identifier": [
          {
            "system": "https://fhir.kbv.de/NamingSystem/KBV_NS_Base_ANR",
            "type": {
              "coding": [
                {
                  "code": "LANR",
                  "system": "http://terminology.hl7.org/CodeSystem/v2-0203"
                }
              ]
            },
            "value": "123456628"
          }
        ],
        "qualification": [
          {
            "code": {
              "coding": [
                {
                  "code": "00",
                  "system": "https://fhir.kbv.de/CodeSystem/KBV_CS_FOR_Qualification_Type"
                }
              ]
            }
          },
          {
            "code": {
              "text": "Facharzt für Innere Medizin: Kardiologie",
              "coding": [
                {
                  "code": "Berufsbezeichnung",
                  "system": "https://fhir.kbv.de/CodeSystem/KBV_CS_FOR_Berufsbezeichnung"
                }
              ]
            }
          }
        ],
        "resourceType": "Practitioner",
        "name": [
          {
            "family": "Freiherr von Müller",
            "_family": {
              "extension": [
                {
                  "url": "http://hl7.org/fhir/StructureDefinition/humanname-own-prefix",
                  "valueString": "von"
                },
                {
                  "url": "http://fhir.de/StructureDefinition/humanname-namenszusatz",
                  "valueString": "Freiherr"
                },
                {
                  "url": "http://hl7.org/fhir/StructureDefinition/humanname-own-name",
                  "valueString": "Müller"
                }
              ]
            },
            "_prefix": [
              {
                "extension": [
                  {
                    "url": "http://hl7.org/fhir/StructureDefinition/iso21090-EN-qualifier",
                    "valueCode": "AC"
                  }
                ]
              }
            ],
            "prefix": [
              "Dr. med."
            ],
            "use": "official",
            "given": [
              "Paul"
            ]
          }
        ]
      }
    },
    {
      "fullUrl": "urn:uuid:5d3f4ac0-2b44-4d48-b363-e63efa72973b",
      "resource": {
        "id": "5d3f4ac0-2b44-4d48-b363-e63efa72973b",
        "telecom": [
          {
            "value": "0301234567",
            "system": "phone"
          },
          {
            "value": "030123456789",
            "system": "fax"
          },
          {
            "value": "mvz@e-mail.de",
            "system": "email"
          }
        ],
        "meta": {
          "profile": [
            "https://fhir.kbv.de/StructureDefinition/KBV_PR_FOR_Organization|1.3"
          ],
          "versionId": "1"
        },
        "identifier": [
          {
            "system": "https://fhir.kbv.de/NamingSystem/KBV_NS_Base_BSNR",
            "type": {
              "coding": [
                {
                  "code": "BSNR",
                  "system": "http://terminology.hl7.org/CodeSystem/v2-0203"
                }
              ]
            },
            "value": "721111100"
          }
        ],
        "address": [
          {
            "country": "D",
            "line": [
              "Herbert-Lewin-Platz 2"
            ],
            "postalCode": "10623",
            "_line": [
              {
                "extension": [
                  {
                    "url": "http://hl7.org/fhir/StructureDefinition/iso21090-ADXP-houseNumber",
                    "valueString": "2"
                  },
                  {
                    "url": "http://hl7.org/fhir/StructureDefinition/iso21090-ADXP-streetName",
                    "valueString": "Herbert-Lewin-Platz"
                  }
                ]
              }
            ],
            "type": "both",
            "city": "Berlin"
          }
        ],
        "resourceType": "Organization",
        "name": "MVZ"
      }
    },
    {
      "fullUrl": "urn:uuid:1b89236c-ab14-4e92-937e-5af0b59d0cd4",
      "resource": {
        "id": "1b89236c-ab14-4e92-937e-5af0b59d0cd4",
        "payor": [
          {
            "identifier": {
              "value": "109719018",
              "system": "http://fhir.de/sid/arge-ik/iknr"
            },
            "display": "AOK Nordost"
          }
        ],
        "beneficiary": {
          "reference": "urn:uuid:93866fdc-3e50-4902-a7e9-891b54737b5e"
        },
        "meta": {
          "profile": [
            "https://fhir.kbv.de/StructureDefinition/KBV_PR_FOR_Coverage|1.3"
          ],
          "versionId": "1"
        },
        "status": "active",
        "type": {
          "coding": [
            {
              "code": "GKV",
              "system": "http://fhir.de/CodeSystem/versicherungsart-de-basis"
            }
          ]
        },
        "resourceType": "Coverage",
        "extension": [
          {
            "url": "http://fhir.de/StructureDefinition/gkv/besondere-personengruppe",
            "valueCoding": {
              "code": "00",
              "system": "https://fhir.kbv.de/CodeSystem/KBV_CS_SFHIR_KBV_PERSONENGRUPPE"
            }
          },
          {
            "url": "http://fhir.de/StructureDefinition/gkv/dmp-kennzeichen",
            "valueCoding": {
              "code": "05",
              "system": "https://fhir.kbv.de/CodeSystem/KBV_CS_SFHIR_KBV_DMP"
            }
          },
          {
            "url": "http://fhir.de/StructureDefinition/gkv/wop",
            "valueCoding": {
              "code": "17",
              "system": "https://fhir.kbv.de/CodeSystem/KBV_CS_SFHIR_ITA_WOP"
            }
          },
          {
            "url": "http://fhir.de/StructureDefinition/gkv/versichertenart",
            "valueCoding": {
              "code": "5",
              "system": "https://fhir.kbv.de/CodeSystem/KBV_CS_SFHIR_KBV_VERSICHERTENSTATUS"
            }
          }
        ]
      }
    }
  ],
  "resourceType": "Bundle",
  "type": "document"
}