{
  "id": "4863d1fb-dc26-4680-bb35-018610d1749d",
  "timestamp": "2025-05-20T08:30:00Z",
  "meta": {
    "profile": [
      "https://fhir.kbv.de/StructureDefinition/KBV_PR_ERP_Bundle|1.4"
    ],
    "versionId": "1"
  },
  "identifier": {
    "value": "160.100.000.000.023.70",
    "system": "https://gematik.de/fhir/erp/NamingSystem/GEM_ERP_NS_PrescriptionId"
  },
  "entry": [
    {
      "fullUrl": "http://pvs.praxis.local/fhir/Composition/5877784c-ca07-4cc8-a58f-1517ddc24055",
      "resource": {
        "id": "5877784c-ca07-4cc8-a58f-1517ddc24055",
        "title": "elektronische Arzneimittelverordnung",
        "author": [
          {
            "reference": "Practitioner/667ffd79-42a3-4002-b7ca-6b9098f20ccb",
            "type": "Practitioner"
          },
          {
            "type": "Device",
            "identifier": {
              "value": "Y/400/2107/36/999",
              "system": "https://fhir.kbv.de/NamingSystem/KBV_NS_FOR_Pruefnummer"
            }
          }
        ],
        "date": "2024-05-20T08:00:00Z",
        "extension": [
          {
            "url": "https://fhir.kbv.de/StructureDefinition/KBV_EX_FOR_Legal_basis",
            "valueCoding": {
              "code": "00",
              "system": "https://fhir.kbv.de/CodeSystem/KBV_CS_SFHIR_KBV_STATUSKENNZEICHEN"
            }
          }
        ],
        "section": [
          {
            "entry": [
              {
                "reference": "MedicationRequest/2979e8a3-352e-4d17-8e06-b356666e4daf"
              }
            ],
            "code": {
              "coding": [
                {
                  "code": "Prescription",
                  "system": "https://fhir.kbv.de/CodeSystem/KBV_CS_ERP_Section_Type"
                }
              ]
            }
          },
          {
            "entry": [
              {
                "reference": "Coverage/69b3bbb6-2d37-4676-baf1-af97ba2ba4ad"
              }
            ],
            "code": {
              "coding": [
                {
                  "code": "Coverage",
                  "system": "https://fhir.kbv.de/CodeSystem/KBV_CS_ERP_Section_Type"
                }
              ]
            }
          }
        ],
        "type": {
          "coding": [
            {
              "code": "e16A",
              "system": "https://fhir.kbv.de/CodeSystem/KBV_CS_SFHIR_KBV_FORMULAR_ART"
            }
          ]
        },
        "meta": {
          "profile": [
            "https://fhir.kbv.de/StructureDefinition/KBV_PR_ERP_Composition|1.4"
          ],
          "versionId": "1"
        },
        "status": "final",
        "subject": {
          "reference": "Patient/fc0d145b-09b4-4af6-b477-935c1862ac7f"
        },
        "resourceType": "Composition",
        "custodian": {
          "reference": "Organization/5d3f4ac0-2b44-4d48-b363-e63efa72973b"
        }
      }
    },
    {
      "fullUrl": "http://pvs.praxis.local/fhir/MedicationRequest/2979e8a3-352e-4d17-8e06-b356666e4daf",
      "resource": {
        "id": "2979e8a3-352e-4d17-8e06-b356666e4daf",
        "intent": "order",
        "substitution": {
          "allowedBoolean": true
        },
        "dispenseRequest": {
          "quantity": {
            "unit": "Packung",
            "value": 1
          }
        },
        "extension": [
          {
            "url": "https://fhir.kbv.de/StructureDefinition/KBV_EX_FOR_StatusCoPayment",
            "valueCoding": {
              "code": "0",
              "system": "https://fhir.kbv.de/CodeSystem/KBV_CS_FOR_StatusCoPayment"
            }
          },
          {
            "url": "https://fhir.kbv.de/StructureDefinition/KBV_EX_ERP_EmergencyServicesFee",
            "valueBoolean": false
          },
          {
            "url": "https://fhir.kbv.de/StructureDefinition/KBV_EX_FOR_SER",
            "valueBoolean": false
          },
          {
            "url": "https://fhir.kbv.de/StructureDefinition/KBV_EX_ERP_Multiple_Prescription",
            "extension": [
              {
                "url": "Kennzeichen",
                "valueBoolean": false
              }
            ]
          },
          {
            "url": "https://fhir.kbv.de/StructureDefinition/KBV_EX_ERP_DosageFlag",
            "valueBoolean": false
          }
        ],
        "medicationReference": {
          "reference": "Medication/0d93504e-c6a7-47c1-8ad5-b0c5cf1b8920"
        },
        "insurance": [
          {
            "reference": "Coverage/69b3bbb6-2d37-4676-baf1-af97ba2ba4ad"
          }
        ],
        "authoredOn": "2024-05-20",
        "meta": {
          "profile": [
            "https://fhir.kbv.de/StructureDefinition/KBV_PR_ERP_Prescription|1.4"
          ],
          "versionId": "1"
        },
        "status": "active",
        "requester": {
          "reference": "Practitioner/667ffd79-42a3-4002-b7ca-6b9098f20ccb"
        },
        "resourceType": "MedicationRequest",
        "subject": {
          "reference": "Patient/fc0d145b-09b4-4af6-b477-935c1862ac7f"
        }
      }
    },
    {
      "fullUrl": "http://pvs.praxis.local/fhir/Medication/0d93504e-c6a7-47c1-8ad5-b0c5cf1b8920",
      "resource": {
        "id": "0d93504e-c6a7-47c1-8ad5-b0c5cf1b8920",
        "meta": {
          "profile": [
            "https://fhir.kbv.de/StructureDefinition/KBV_PR_ERP_Medication_FreeText|1.4"
          ],
          "versionId": "1"
        },
        "code": {
          "text": "Metformin 850mg Tabletten N3",
          "coding": [
            {
              "code": "freitext",
              "system": "https://fhir.kbv.de/CodeSystem/KBV_CS_ERP_Medication_Type"
            }
          ]
        },
        "resourceType": "Medication",
        "extension": [
          {
            "url": "https://fhir.kbv.de/StructureDefinition/KBV_EX_ERP_Medication_Category",
            "valueCoding": {
              "code": "00",
              "system": "https://fhir.kbv.de/CodeSystem/KBV_CS_ERP_Medication_Category"
            }
          },
          {
            "url": "https://fhir.kbv.de/StructureDefinition/KBV_EX_ERP_Medication_Vaccine",
            "valueBoolean": false
          }
        ]
      }
    },
    {
      "fullUrl": "http://pvs.praxis.local/fhir/Patient/fc0d145b-09b4-4af6-b477-935c1862ac7f",
      "resource": {
        "id": "fc0d145b-09b4-4af6-b477-935c1862ac7f",
        "address": [
          {
            "country": "D",
            "line": [
              "Siegburger Str. 155"
            ],
            "postalCode": "51105",
            "_line": [
              {
                "extension": [
                  {
                    "url": "http://hl7.org/fhir/StructureDefinition/iso21090-ADXP-houseNumber",
                    "valueString": "155"
                  },
                  {
                    "url": "http://hl7.org/fhir/StructureDefinition/iso21090-ADXP-streetName",
                    "valueString": "Siegburger Str."
                  }
                ]
              }
            ],
            "type": "both",
            "city": "Köln"
          }
        ],
        "meta": {
          "profile": [
            "https://fhir.kbv.de/StructureDefinition/KBV_PR_FOR_Patient|1.3"
          ],
          "versionId": "1"
        },
        "identifier": [
          {
            "system": "http://fhir.de/sid/gkv/kvid-10",
            "type": {
              "coding": [
                {
                  "code": "KVZ10",
                  "system": "http://fhir.de/CodeSystem/identifier-type-de-basis"
                }
              ]
            },
            "value": "S040464113"
          }
        ],
        "birthDate": "1964-04-04",
        "resourceType": "Patient",
        "name": [
          {
            "family": "Graf Freiherr von Schaumberg",
            "_family": {
              "extension": [
                {
                  "url": "http://fhir.de/StructureDefinition/humanname-namenszusatz",
                  "valueString": "Graf Freiherr"
                },
                {
                  "url": "http://hl7.org/fhir/StructureDefinition/humanname-own-prefix",
                  "valueString": "von"
                },
                {
                  "url": "http://hl7.org/fhir/StructureDefinition/humanname-own-name",
                  "valueString": "Schaumberg"
                }
              ]
            },
            "_prefix": [
              {
                "extension": [
                  {
                    "url": "http://hl7.org/fhir/StructureDefinition/iso21090-EN-qualifier",
                    "valueCode": "AC"
                  }
                ]
              }
            ],
            "prefix": [
              "Prof. Dr."
            ],
            "use": "official",
            "given": [
              "Karl-Friederich"
            ]
          }
        ]
      }
    },
    {
      "fullUrl": "http://pvs.praxis.local/fhir/Practitioner/667ffd79-42a3-4002-b7ca-6b9098f20ccb",
      "resource": {
        "id": "667ffd79-42a3-4002-b7ca-6b9098f20ccb",
        "meta": {
          "profile": [
            "https://fhir.kbv.de/StructureDefinition/KBV_PR_FOR_Practitioner|1.3"
          ],
          "versionId": "1"
        },
        "identifier": [
          {
            "system": "https://fhir.kbv.de/NamingSystem/KBV_NS_Base_ANR",
            "type": {
              "coding": [
                {
                  "code": "LANR",
                  "system": "http://terminology.hl7.org/CodeSystem/v2-0203"
                }
              ]
            },
            "value": "987654423"
          }
        ],
        "qualification": [
          {
            "code": {
              "coding": [
                {
                  "code": "00",
                  "system": "https://fhir.kbv.de/CodeSystem/KBV_CS_FOR_Qualification_Type"
                }
              ]
            }
          },
          {
            "code": {
              "text": "Fachärztin für Innere Medizin",
              "coding": [
                {
                  "code": "Berufsbezeichnung",
                  "system": "https://fhir.kbv.de/CodeSystem/KBV_CS_FOR_Berufsbezeichnung"
                }
              ]
            }
          }
        ],
        "resourceType": "Practitioner",
        "name": [
          {
            "family": "Schneider",
            "_family": {
              "extension": [
                {
                  "url": "http://hl7.org/fhir/StructureDefinition/humanname-own-name",
                  "valueString": "Schneider"
                }
              ]
            },
            "_prefix": [
              {
                "extension": [
                  {
                    "url": "http://hl7.org/fhir/StructureDefinition/iso21090-EN-qualifier",
                    "valueCode": "AC"
                  }
                ]
              }
            ],
            "prefix": [
              "Dr. med."
            ],
            "use": "official",
            "given": [
              "Emma"
            ]
          }
        ]
      }
    },
    {
      "fullUrl": "http://pvs.praxis.local/fhir/Organization/5d3f4ac0-2b44-4d48-b363-e63efa72973b",
      "resource": {
        "id": "5d3f4ac0-2b44-4d48-b363-e63efa72973b",
        "telecom": [
          {
            "value": "0301234567",
            "system": "phone"
          },
          {
            "value": "030123456789",
            "system": "fax"
          },
          {
            "value": "mvz@e-mail.de",
            "system": "email"
          }
        ],
        "meta": {
          "profile": [
            "https://fhir.kbv.de/StructureDefinition/KBV_PR_FOR_Organization|1.3"
          ],
          "versionId": "1"
        },
        "identifier": [
          {
            "system": "https://fhir.kbv.de/NamingSystem/KBV_NS_Base_BSNR",
            "type": {
              "coding": [
                {
                  "code": "BSNR",
                  "system": "http://terminology.hl7.org/CodeSystem/v2-0203"
                }
              ]
            },
            "value": "721111100"
          }
        ],
        "address": [
          {
            "country": "D",
            "line": [
              "Herbert-Lewin-Platz 2"
            ],
            "postalCode": "10623",
            "_line": [
              {
                "extension": [
                  {
                    "url": "http://hl7.org/fhir/StructureDefinition/iso21090-ADXP-houseNumber",
                    "valueString": "2"
                  },
                  {
                    "url": "http://hl7.org/fhir/StructureDefinition/iso21090-ADXP-streetName",
                    "valueString": "Herbert-Lewin-Platz"
                  }
                ]
              }
            ],
            "type": "both",
            "city": "Berlin"
          }
        ],
        "resourceType": "Organization",
        "name": "MVZ"
      }
    },
    {
      "fullUrl": "http://pvs.praxis.local/fhir/Coverage/69b3bbb6-2d37-4676-baf1-af97ba2ba4ad",
      "resource": {
        "id": "69b3bbb6-2d37-4676-baf1-af97ba2ba4ad",
        "payor": [
          {
            "identifier": {
              "value": "104212059",
              "system": "http://fhir.de/sid/arge-ik/iknr"
            },
            "display": "AOK Rheinland/Hamburg"
          }
        ],
        "beneficiary": {
          "reference": "Patient/fc0d145b-09b4-4af6-b477-935c1862ac7f"
        },
        "meta": {
          "profile": [
            "https://fhir.kbv.de/StructureDefinition/KBV_PR_FOR_Coverage|1.3"
          ],
          "versionId": "1"
        },
        "status": "active",
        "type": {
          "coding": [
            {
              "code": "GKV",
              "system": "http://fhir.de/CodeSystem/versicherungsart-de-basis"
            }
          ]
        },
        "resourceType": "Coverage",
        "extension": [
          {
            "url": "http://fhir.de/StructureDefinition/gkv/besondere-personengruppe",
            "valueCoding": {
              "code": "00",
              "system": "https://fhir.kbv.de/CodeSystem/KBV_CS_SFHIR_KBV_PERSONENGRUPPE"
            }
          },
          {
            "url": "http://fhir.de/StructureDefinition/gkv/dmp-kennzeichen",
            "valueCoding": {
              "code": "00",
              "system": "https://fhir.kbv.de/CodeSystem/KBV_CS_SFHIR_KBV_DMP"
            }
          },
          {
            "url": "http://fhir.de/StructureDefinition/gkv/wop",
            "valueCoding": {
              "code": "38",
              "system": "https://fhir.kbv.de/CodeSystem/KBV_CS_SFHIR_ITA_WOP"
            }
          },
          {
            "url": "http://fhir.de/StructureDefinition/gkv/versichertenart",
            "valueCoding": {
              "code": "1",
              "system": "https://fhir.kbv.de/CodeSystem/KBV_CS_SFHIR_KBV_VERSICHERTENSTATUS"
            }
          }
        ]
      }
    }
  ],
  "resourceType": "Bundle",
  "type": "document"
}