{
  "resourceType" : "Parameters",
  "parameter" : [{
    "name" : "rxPrescription",
    "part" : [{
      "name" : "organization",
      "resource" : {
        "resourceType" : "Organization",
        "id" : "2a555cd3-0543-483c-88b3-f68647620962",
        "identifier" : [{
          "type" : {
            "coding" : [{
              "system" : "http://terminology.hl7.org/CodeSystem/v2-0203",
              "code" : "BSNR"
            }]
          },
          "system" : "https://fhir.kbv.de/NamingSystem/KBV_NS_Base_BSNR",
          "value" : "724444400"
        }],
        "telecom" : [{
          "system" : "phone",
          "value" : "030321654987"
        },
        {
          "system" : "email",
          "value" : "hausarztpraxis@e-mail.de"
        }]
      }
    }]
  },
  {
    "name" : "rxPrescription",
    "part" : [{
      "name" : "practitioner",
      "resource" : {
        "resourceType" : "Practitioner",
        "id" : "d6f3b55d-3095-4655-96dc-da3bec21271c",
        "identifier" : [{
          "type" : {
            "coding" : [{
              "system" : "http://terminology.hl7.org/CodeSystem/v2-0203",
              "code" : "LANR"
            }]
          },
          "system" : "https://fhir.kbv.de/NamingSystem/KBV_NS_Base_ANR",
          "value" : "754236701"
        }],
        "name" : [{
          "use" : "official",
          "family" : "Schulz",
          "_family" : {
            "extension" : [{
              "url" : "http://hl7.org/fhir/StructureDefinition/humanname-own-name",
              "valueString" : "Schulz"
            }]
          },
          "given" : ["Ben"]
        }],
        "qualification" : [{
          "code" : {
            "coding" : [{
              "system" : "https://fhir.kbv.de/CodeSystem/KBV_CS_FOR_Berufsbezeichnung",
              "code" : "Berufsbezeichnung"
            }],
            "text" : "Facharzt für Allgemeinmedizin"
          }
        }]
      }
    }]
  },
  {
    "name" : "rxPrescription",
    "part" : [{
      "name" : "medicationRequest",
      "resource" : {
        "resourceType" : "MedicationRequest",
        "id" : "a05364ab-29b1-4553-90b8-9657e2f5f5ed",
        "status" : "active",
        "intent" : "order",
        "medicationReference" : {
          "reference" : "Medication/dc811d43-aad4-4c8d-a58c-2e0258710142"
        },
        "authoredOn" : "2024-05-20",
        "requester" : {
          "reference" : "Practitioner/d6f3b55d-3095-4655-96dc-da3bec21271c"
        },
        "insurance" : [{
          "reference" : "Coverage/1b89236c-ab14-4e92-937e-5af0b59d0cd4"
        }],
        "dispenseRequest" : {
          "quantity" : {
            "value" : 1,
            "unit" : "Packung"
          }
        },
        "subject" : {
          "reference" : "Patient/93866fdc-3e50-4902-a7e9-891b54737b5e"
        }
      }
    }]
  },
  {
    "name" : "rxPrescription",
    "part" : [{
      "name" : "medication",
      "resource" : {
        "resourceType" : "Medication",
        "id" : "dc811d43-aad4-4c8d-a58c-2e0258710142",
        "code" : {
          "coding" : [{
            "system" : "https://fhir.kbv.de/CodeSystem/KBV_CS_ERP_Medication_Type",
            "code" : "wirkstoff"
          }]
        },
        "form" : {
          "text" : "Tabletten"
        },
        "ingredient" : [{
          "itemCodeableConcept" : {
            "coding" : [{
              "system" : "http://fhir.de/CodeSystem/ask",
              "code" : "22339"
            }]
          }
        },
        {
          "itemCodeableConcept" : {
            "coding" : [{
              "code" : "22339"
            }]
          }
        },
        {
          "itemCodeableConcept" : {
            "coding" : [{
              "system" : "http://fhir.de/CodeSystem/ask"
            }]
          }
        },
        {
          "itemCodeableConcept" : {
            "text" : "Somatropin"
          }
        },
        {
          "strength" : {
            "denominator" : {
              "unit" : "Stück"
            }
          }
        },
        {
          "strength" : {
            "denominator" : {
              "value" : 1
            }
          }
        },
        {
          "strength" : {
            "numerator" : {
              "unit" : "mg"
            }
          }
        },
        {
          "strength" : {
            "numerator" : {
              "value" : 12
            }
          }
        }]
      }
    }]
  },
  {
    "name" : "rxPrescription",
    "part" : [{
      "name" : "medication",
      "resource" : {
        "resourceType" : "Medication",
        "id" : "dc811d43-aad4-4c8d-a58c-2e0258710142",
        "code" : {
          "coding" : [{
            "system" : "https://fhir.kbv.de/CodeSystem/KBV_CS_ERP_Medication_Type",
            "code" : "wirkstoff"
          }]
        },
        "form" : {
          "text" : "Tabletten"
        },
        "ingredient" : [{
          "itemCodeableConcept" : {
            "coding" : [{
              "system" : "http://fhir.de/CodeSystem/ask",
              "code" : "22339"
            }]
          }
        },
        {
          "itemCodeableConcept" : {
            "coding" : [{
              "code" : "22339"
            }]
          }
        },
        {
          "itemCodeableConcept" : {
            "coding" : [{
              "system" : "http://fhir.de/CodeSystem/ask"
            }]
          }
        },
        {
          "itemCodeableConcept" : {
            "text" : "Somatropin"
          }
        },
        {
          "strength" : {
            "denominator" : {
              "unit" : "Stück"
            }
          }
        },
        {
          "strength" : {
            "denominator" : {
              "value" : 1
            }
          }
        },
        {
          "strength" : {
            "numerator" : {
              "unit" : "mg"
            }
          }
        },
        {
          "strength" : {
            "numerator" : {
              "value" : 12
            }
          }
        }]
      }
    }]
  },
  {
    "name" : "rxPrescription",
    "part" : [{
      "name" : "medication",
      "resource" : {
        "resourceType" : "Medication",
        "id" : "dc811d43-aad4-4c8d-a58c-2e0258710142",
        "code" : {
          "coding" : [{
            "system" : "https://fhir.kbv.de/CodeSystem/KBV_CS_ERP_Medication_Type",
            "code" : "wirkstoff"
          }]
        },
        "form" : {
          "text" : "Tabletten"
        },
        "ingredient" : [{
          "itemCodeableConcept" : {
            "coding" : [{
              "system" : "http://fhir.de/CodeSystem/ask",
              "code" : "22339"
            }]
          }
        },
        {
          "itemCodeableConcept" : {
            "coding" : [{
              "code" : "22339"
            }]
          }
        },
        {
          "itemCodeableConcept" : {
            "coding" : [{
              "system" : "http://fhir.de/CodeSystem/ask"
            }]
          }
        },
        {
          "itemCodeableConcept" : {
            "text" : "Somatropin"
          }
        },
        {
          "strength" : {
            "denominator" : {
              "unit" : "Stück"
            }
          }
        },
        {
          "strength" : {
            "denominator" : {
              "value" : 1
            }
          }
        },
        {
          "strength" : {
            "numerator" : {
              "unit" : "mg"
            }
          }
        },
        {
          "strength" : {
            "numerator" : {
              "value" : 12
            }
          }
        }]
      }
    }]
  },
  {
    "name" : "rxPrescription",
    "part" : [{
      "name" : "medication",
      "resource" : {
        "resourceType" : "Medication",
        "id" : "dc811d43-aad4-4c8d-a58c-2e0258710142",
        "code" : {
          "coding" : [{
            "system" : "https://fhir.kbv.de/CodeSystem/KBV_CS_ERP_Medication_Type",
            "code" : "wirkstoff"
          }]
        },
        "form" : {
          "text" : "Tabletten"
        },
        "ingredient" : [{
          "itemCodeableConcept" : {
            "coding" : [{
              "system" : "http://fhir.de/CodeSystem/ask",
              "code" : "22339"
            }]
          }
        },
        {
          "itemCodeableConcept" : {
            "coding" : [{
              "code" : "22339"
            }]
          }
        },
        {
          "itemCodeableConcept" : {
            "coding" : [{
              "system" : "http://fhir.de/CodeSystem/ask"
            }]
          }
        },
        {
          "itemCodeableConcept" : {
            "text" : "Somatropin"
          }
        },
        {
          "strength" : {
            "denominator" : {
              "unit" : "Stück"
            }
          }
        },
        {
          "strength" : {
            "denominator" : {
              "value" : 1
            }
          }
        },
        {
          "strength" : {
            "numerator" : {
              "unit" : "mg"
            }
          }
        },
        {
          "strength" : {
            "numerator" : {
              "value" : 12
            }
          }
        }]
      }
    }]
  }]
}