{
  "id": "9581ce65-b118-4751-9073-19c091b341e0",
  "timestamp": "2025-05-20T08:30:00Z",
  "meta": {
    "profile": [
      "https://fhir.kbv.de/StructureDefinition/KBV_PR_ERP_Bundle|1.4"
    ],
    "versionId": "1"
  },
  "identifier": {
    "value": "160.100.000.000.024.67",
    "system": "https://gematik.de/fhir/erp/NamingSystem/GEM_ERP_NS_PrescriptionId"
  },
  "entry": [
    {
      "fullUrl": "http://pvs.praxis.local/fhir/Composition/80a467fb-36ad-4549-8be1-12f0e4520c73",
      "resource": {
        "id": "80a467fb-36ad-4549-8be1-12f0e4520c73",
        "title": "elektronische Arzneimittelverordnung",
        "author": [
          {
            "reference": "Practitioner/ec5b4fcf-9739-4055-b23c-a5b3a65beb66",
            "type": "Practitioner"
          },
          {
            "type": "Device",
            "identifier": {
              "value": "Y/400/2107/36/999",
              "system": "https://fhir.kbv.de/NamingSystem/KBV_NS_FOR_Pruefnummer"
            }
          }
        ],
        "date": "2025-05-20T08:00:00Z",
        "extension": [
          {
            "url": "https://fhir.kbv.de/StructureDefinition/KBV_EX_FOR_Legal_basis",
            "valueCoding": {
              "code": "00",
              "system": "https://fhir.kbv.de/CodeSystem/KBV_CS_SFHIR_KBV_STATUSKENNZEICHEN"
            }
          }
        ],
        "section": [
          {
            "entry": [
              {
                "reference": "MedicationRequest/4739972b-52d6-4bea-9ba1-d360f8c22689"
              }
            ],
            "code": {
              "coding": [
                {
                  "code": "Prescription",
                  "system": "https://fhir.kbv.de/CodeSystem/KBV_CS_ERP_Section_Type"
                }
              ]
            }
          },
          {
            "entry": [
              {
                "reference": "Coverage/e51239e1-ba74-48e0-97fb-9754d2b05c60"
              }
            ],
            "code": {
              "coding": [
                {
                  "code": "Coverage",
                  "system": "https://fhir.kbv.de/CodeSystem/KBV_CS_ERP_Section_Type"
                }
              ]
            }
          }
        ],
        "type": {
          "coding": [
            {
              "code": "e16A",
              "system": "https://fhir.kbv.de/CodeSystem/KBV_CS_SFHIR_KBV_FORMULAR_ART"
            }
          ]
        },
        "meta": {
          "profile": [
            "https://fhir.kbv.de/StructureDefinition/KBV_PR_ERP_Composition|1.4"
          ],
          "versionId": "1"
        },
        "status": "final",
        "subject": {
          "reference": "Patient/30635f5d-c233-4500-94e8-6414940236aa"
        },
        "resourceType": "Composition",
        "custodian": {
          "reference": "Organization/5d3f4ac0-2b44-4d48-b363-e63efa72973b"
        }
      }
    },
    {
      "fullUrl": "http://pvs.praxis.local/fhir/MedicationRequest/4739972b-52d6-4bea-9ba1-d360f8c22689",
      "resource": {
        "id": "4739972b-52d6-4bea-9ba1-d360f8c22689",
        "intent": "order",
        "substitution": {
          "allowedBoolean": true
        },
        "dispenseRequest": {
          "quantity": {
            "unit": "Packung",
            "value": 1
          }
        },
        "dosageInstruction": [
          {
            "text": "1–3mal/Tag auf die erkrankten Hautstellen auftragen"
          }
        ],
        "extension": [
          {
            "url": "https://fhir.kbv.de/StructureDefinition/KBV_EX_FOR_StatusCoPayment",
            "valueCoding": {
              "code": "1",
              "system": "https://fhir.kbv.de/CodeSystem/KBV_CS_FOR_StatusCoPayment"
            }
          },
          {
            "url": "https://fhir.kbv.de/StructureDefinition/KBV_EX_ERP_EmergencyServicesFee",
            "valueBoolean": false
          },
          {
            "url": "https://fhir.kbv.de/StructureDefinition/KBV_EX_FOR_SER",
            "valueBoolean": false
          },
          {
            "url": "https://fhir.kbv.de/StructureDefinition/KBV_EX_ERP_Multiple_Prescription",
            "extension": [
              {
                "url": "Kennzeichen",
                "valueBoolean": false
              }
            ]
          },
          {
            "url": "https://fhir.kbv.de/StructureDefinition/KBV_EX_ERP_DosageFlag",
            "valueBoolean": true
          },
          {
            "url": "http://hl7.org/fhir/5.0/StructureDefinition/extension-MedicationRequest.renderedDosageInstruction",
            "valueMarkdown": "1–3mal/Tag auf die erkrankten Hautstellen auftragen"
          },
          {
            "url": "http://ig.fhir.de/igs/medication/StructureDefinition/GeneratedDosageInstructionsMeta",
            "extension": [
              {
                "url": "algorithmVersion",
                "valueString": "1.0.0"
              },
              {
                "url": "language",
                "valueCode": "de-DE"
              }
            ]
          }
        ],
        "medicationReference": {
          "reference": "Medication/5cd916fc-2ae2-4148-b016-911ec5f4c0a5"
        },
        "insurance": [
          {
            "reference": "Coverage/e51239e1-ba74-48e0-97fb-9754d2b05c60"
          }
        ],
        "authoredOn": "2025-05-20",
        "meta": {
          "profile": [
            "https://fhir.kbv.de/StructureDefinition/KBV_PR_ERP_Prescription|1.4"
          ],
          "versionId": "1"
        },
        "status": "active",
        "requester": {
          "reference": "Practitioner/ec5b4fcf-9739-4055-b23c-a5b3a65beb66"
        },
        "resourceType": "MedicationRequest",
        "subject": {
          "reference": "Patient/30635f5d-c233-4500-94e8-6414940236aa"
        }
      }
    },
    {
      "fullUrl": "http://pvs.praxis.local/fhir/Medication/5cd916fc-2ae2-4148-b016-911ec5f4c0a5",
      "resource": {
        "id": "5cd916fc-2ae2-4148-b016-911ec5f4c0a5",
        "ingredient": [
          {
            "strength": {
              "denominator": {
                "value": 1
              },
              "numerator": {
                "unit": "g",
                "value": 5
              }
            },
            "itemCodeableConcept": {
              "text": "Salicylsäure"
            }
          },
          {
            "strength": {
              "extension": [
                {
                  "url": "https://fhir.kbv.de/StructureDefinition/KBV_EX_ERP_Medication_Ingredient_Amount",
                  "valueString": "Ad 100 g"
                }
              ]
            },
            "itemCodeableConcept": {
              "text": "2-propanol 70 %"
            }
          }
        ],
        "amount": {
          "denominator": {
            "value": 1
          },
          "numerator": {
            "unit": "ml",
            "extension": [
              {
                "url": "https://fhir.kbv.de/StructureDefinition/KBV_EX_ERP_Medication_PackagingSize",
                "valueString": "100"
              }
            ]
          }
        },
        "meta": {
          "profile": [
            "https://fhir.kbv.de/StructureDefinition/KBV_PR_ERP_Medication_Compounding|1.4"
          ],
          "versionId": "1"
        },
        "form": {
          "text": "Lösung"
        },
        "code": {
          "coding": [
            {
              "code": "rezeptur",
              "system": "https://fhir.kbv.de/CodeSystem/KBV_CS_ERP_Medication_Type"
            }
          ]
        },
        "resourceType": "Medication",
        "extension": [
          {
            "url": "https://fhir.kbv.de/StructureDefinition/KBV_EX_Base_Medication_Type",
            "valueCodeableConcept": {
              "coding": [
                {
                  "display": "Extemporaneous preparation (product)",
                  "system": "http://snomed.info/sct",
                  "version": "http://snomed.info/sct/11000274103/version/20240515",
                  "code": "1208954007"
                }
              ]
            }
          },
          {
            "url": "https://fhir.kbv.de/StructureDefinition/KBV_EX_ERP_Medication_Category",
            "valueCoding": {
              "code": "00",
              "system": "https://fhir.kbv.de/CodeSystem/KBV_CS_ERP_Medication_Category"
            }
          },
          {
            "url": "https://fhir.kbv.de/StructureDefinition/KBV_EX_ERP_Medication_Vaccine",
            "valueBoolean": false
          }
        ]
      }
    },
    {
      "fullUrl": "http://pvs.praxis.local/fhir/Patient/30635f5d-c233-4500-94e8-6414940236aa",
      "resource": {
        "id": "30635f5d-c233-4500-94e8-6414940236aa",
        "address": [
          {
            "country": "D",
            "line": [
              "Berliner Straße 1"
            ],
            "postalCode": "25813",
            "_line": [
              {
                "extension": [
                  {
                    "url": "http://hl7.org/fhir/StructureDefinition/iso21090-ADXP-houseNumber",
                    "valueString": "1"
                  },
                  {
                    "url": "http://hl7.org/fhir/StructureDefinition/iso21090-ADXP-streetName",
                    "valueString": "Berliner Straße"
                  }
                ]
              }
            ],
            "type": "both",
            "city": "Husum"
          }
        ],
        "meta": {
          "profile": [
            "https://fhir.kbv.de/StructureDefinition/KBV_PR_FOR_Patient|1.3"
          ],
          "versionId": "1"
        },
        "identifier": [
          {
            "system": "http://fhir.de/sid/gkv/kvid-10",
            "type": {
              "coding": [
                {
                  "code": "KVZ10",
                  "system": "http://fhir.de/CodeSystem/identifier-type-de-basis"
                }
              ]
            },
            "value": "K220645122"
          }
        ],
        "birthDate": "1970-12-24",
        "resourceType": "Patient",
        "name": [
          {
            "family": "Schuhmann",
            "given": [
              "Sahra"
            ],
            "use": "official",
            "_family": {
              "extension": [
                {
                  "url": "http://hl7.org/fhir/StructureDefinition/humanname-own-name",
                  "valueString": "Schuhmann"
                }
              ]
            }
          }
        ]
      }
    },
    {
      "fullUrl": "http://pvs.praxis.local/fhir/Practitioner/ec5b4fcf-9739-4055-b23c-a5b3a65beb66",
      "resource": {
        "id": "ec5b4fcf-9739-4055-b23c-a5b3a65beb66",
        "meta": {
          "profile": [
            "https://fhir.kbv.de/StructureDefinition/KBV_PR_FOR_Practitioner|1.3"
          ],
          "versionId": "1"
        },
        "identifier": [
          {
            "system": "https://fhir.kbv.de/NamingSystem/KBV_NS_Base_ANR",
            "type": {
              "coding": [
                {
                  "code": "LANR",
                  "system": "http://terminology.hl7.org/CodeSystem/v2-0203"
                }
              ]
            },
            "value": "123412821"
          }
        ],
        "qualification": [
          {
            "code": {
              "coding": [
                {
                  "code": "00",
                  "system": "https://fhir.kbv.de/CodeSystem/KBV_CS_FOR_Qualification_Type"
                }
              ]
            }
          },
          {
            "code": {
              "text": "Dermatologin",
              "coding": [
                {
                  "code": "Berufsbezeichnung",
                  "system": "https://fhir.kbv.de/CodeSystem/KBV_CS_FOR_Berufsbezeichnung"
                }
              ]
            }
          }
        ],
        "resourceType": "Practitioner",
        "name": [
          {
            "family": "Schmidt",
            "_family": {
              "extension": [
                {
                  "url": "http://hl7.org/fhir/StructureDefinition/humanname-own-name",
                  "valueString": "Schmidt"
                }
              ]
            },
            "_prefix": [
              {
                "extension": [
                  {
                    "url": "http://hl7.org/fhir/StructureDefinition/iso21090-EN-qualifier",
                    "valueCode": "AC"
                  }
                ]
              }
            ],
            "prefix": [
              "Dr."
            ],
            "use": "official",
            "given": [
              "Hanna"
            ]
          }
        ]
      }
    },
    {
      "fullUrl": "http://pvs.praxis.local/fhir/Organization/5d3f4ac0-2b44-4d48-b363-e63efa72973b",
      "resource": {
        "id": "5d3f4ac0-2b44-4d48-b363-e63efa72973b",
        "telecom": [
          {
            "value": "0301234567",
            "system": "phone"
          },
          {
            "value": "030123456789",
            "system": "fax"
          },
          {
            "value": "mvz@e-mail.de",
            "system": "email"
          }
        ],
        "meta": {
          "profile": [
            "https://fhir.kbv.de/StructureDefinition/KBV_PR_FOR_Organization|1.3"
          ],
          "versionId": "1"
        },
        "identifier": [
          {
            "system": "https://fhir.kbv.de/NamingSystem/KBV_NS_Base_BSNR",
            "type": {
              "coding": [
                {
                  "code": "BSNR",
                  "system": "http://terminology.hl7.org/CodeSystem/v2-0203"
                }
              ]
            },
            "value": "721111100"
          }
        ],
        "address": [
          {
            "country": "D",
            "line": [
              "Herbert-Lewin-Platz 2"
            ],
            "postalCode": "10623",
            "_line": [
              {
                "extension": [
                  {
                    "url": "http://hl7.org/fhir/StructureDefinition/iso21090-ADXP-houseNumber",
                    "valueString": "2"
                  },
                  {
                    "url": "http://hl7.org/fhir/StructureDefinition/iso21090-ADXP-streetName",
                    "valueString": "Herbert-Lewin-Platz"
                  }
                ]
              }
            ],
            "type": "both",
            "city": "Berlin"
          }
        ],
        "resourceType": "Organization",
        "name": "MVZ"
      }
    },
    {
      "fullUrl": "http://pvs.praxis.local/fhir/Coverage/e51239e1-ba74-48e0-97fb-9754d2b05c60",
      "resource": {
        "id": "e51239e1-ba74-48e0-97fb-9754d2b05c60",
        "payor": [
          {
            "identifier": {
              "value": "108018347",
              "system": "http://fhir.de/sid/arge-ik/iknr"
            },
            "display": "AOK Baden-Württemberg"
          }
        ],
        "beneficiary": {
          "reference": "Patient/30635f5d-c233-4500-94e8-6414940236aa"
        },
        "meta": {
          "profile": [
            "https://fhir.kbv.de/StructureDefinition/KBV_PR_FOR_Coverage|1.3"
          ],
          "versionId": "1"
        },
        "status": "active",
        "type": {
          "coding": [
            {
              "code": "GKV",
              "system": "http://fhir.de/CodeSystem/versicherungsart-de-basis"
            }
          ]
        },
        "resourceType": "Coverage",
        "extension": [
          {
            "url": "http://fhir.de/StructureDefinition/gkv/besondere-personengruppe",
            "valueCoding": {
              "code": "00",
              "system": "https://fhir.kbv.de/CodeSystem/KBV_CS_SFHIR_KBV_PERSONENGRUPPE"
            }
          },
          {
            "url": "http://fhir.de/StructureDefinition/gkv/dmp-kennzeichen",
            "valueCoding": {
              "code": "00",
              "system": "https://fhir.kbv.de/CodeSystem/KBV_CS_SFHIR_KBV_DMP"
            }
          },
          {
            "url": "http://fhir.de/StructureDefinition/gkv/wop",
            "valueCoding": {
              "code": "01",
              "system": "https://fhir.kbv.de/CodeSystem/KBV_CS_SFHIR_ITA_WOP"
            }
          },
          {
            "url": "http://fhir.de/StructureDefinition/gkv/versichertenart",
            "valueCoding": {
              "code": "1",
              "system": "https://fhir.kbv.de/CodeSystem/KBV_CS_SFHIR_KBV_VERSICHERTENSTATUS"
            }
          }
        ]
      }
    }
  ],
  "resourceType": "Bundle",
  "type": "document"
}