{
  "resourceType" : "Parameters",
  "parameter" : [{
    "name" : "rxPrescription",
    "part" : [{
      "name" : "prescriptionId",
      "valueIdentifier" : {
        "system" : "https://gematik.de/fhir/erp/NamingSystem/GEM_ERP_NS_PrescriptionId",
        "value" : "160.100.000.000.040.19"
      }
    },
    {
      "name" : "medicationRequest",
      "resource" : {
        "resourceType" : "MedicationRequest",
        "id" : "9218cbd8-71f1-4800-9b52-370860b7079f",
        "status" : "active",
        "intent" : "order",
        "medicationReference" : {
          "reference" : "Medication/523bfe94-d8f0-42ac-b4d1-92910cad5be7"
        },
        "authoredOn" : "2024-05-20",
        "requester" : {
          "reference" : "Practitioner/d6f3b55d-3095-4655-96dc-da3bec21271c"
        },
        "insurance" : [{
          "reference" : "Coverage/e51239e1-ba74-48e0-97fb-9754d2b05c60"
        }],
        "dispenseRequest" : {
          "quantity" : {
            "value" : 1,
            "unit" : "Packung"
          }
        },
        "subject" : {
          "reference" : "Patient/1d36152b-40c6-4aeb-a552-86a4d3277edc"
        },
        "substitution" : {
          "allowedBoolean" : true
        }
      }
    },
    {
      "name" : "organization",
      "resource" : {
        "resourceType" : "Organization",
        "id" : "2a555cd3-0543-483c-88b3-f68647620962",
        "identifier" : [{
          "type" : {
            "coding" : [{
              "system" : "http://terminology.hl7.org/CodeSystem/v2-0203",
              "code" : "BSNR"
            }]
          },
          "system" : "https://fhir.kbv.de/NamingSystem/KBV_NS_Base_BSNR",
          "value" : "724444400"
        }],
        "name" : "Hausarztpraxis",
        "telecom" : [{
          "system" : "phone",
          "value" : "030321654987"
        },
        {
          "system" : "email",
          "value" : "hausarztpraxis@e-mail.de"
        }],
        "address" : [{
          "type" : "both",
          "line" : ["Herbert-Lewin-Platz 2",
          "Erdgeschoss"],
          "_line" : [{
            "extension" : [{
              "url" : "http://hl7.org/fhir/StructureDefinition/iso21090-ADXP-houseNumber",
              "valueString" : "2"
            },
            {
              "url" : "http://hl7.org/fhir/StructureDefinition/iso21090-ADXP-streetName",
              "valueString" : "Herbert-Lewin-Platz"
            }]
          },
          {
            "extension" : [{
              "url" : "http://hl7.org/fhir/StructureDefinition/iso21090-ADXP-additionalLocator",
              "valueString" : "Erdgeschoss"
            }]
          }],
          "city" : "Berlin",
          "postalCode" : "10623",
          "country" : "D"
        }]
      }
    },
    {
      "name" : "practitioner",
      "resource" : {
        "resourceType" : "Practitioner",
        "id" : "d6f3b55d-3095-4655-96dc-da3bec21271c",
        "identifier" : [{
          "type" : {
            "coding" : [{
              "system" : "http://terminology.hl7.org/CodeSystem/v2-0203",
              "code" : "LANR"
            }]
          },
          "system" : "https://fhir.kbv.de/NamingSystem/KBV_NS_Base_ANR",
          "value" : "754236701"
        }],
        "name" : [{
          "use" : "official",
          "family" : "Schulz",
          "_family" : {
            "extension" : [{
              "url" : "http://hl7.org/fhir/StructureDefinition/humanname-own-name",
              "valueString" : "Schulz"
            }]
          },
          "given" : ["Ben"]
        }],
        "qualification" : [{
          "code" : {
            "coding" : [{
              "system" : "https://fhir.kbv.de/CodeSystem/KBV_CS_FOR_Berufsbezeichnung",
              "code" : "Berufsbezeichnung"
            }],
            "text" : "Facharzt für Allgemeinmedizin"
          }
        }]
      }
    },
    {
      "name" : "medication",
      "resource" : {
        "resourceType" : "Medication",
        "id" : "523bfe94-d8f0-42ac-b4d1-92910cad5be7",
        "code" : {
          "coding" : [{
            "system" : "http://fhir.de/CodeSystem/ifa/pzn",
            "code" : "09943571"
          },
          {
            "code" : "09943571"
          },
          {
            "system" : "http://fhir.de/CodeSystem/ifa/pzn"
          }],
          "text" : "Sprycel 100MG FTA 30 ST"
        },
        "form" : {
          "coding" : [{
            "system" : "https://fhir.kbv.de/CodeSystem/KBV_CS_SFHIR_KBV_DARREICHUNGSFORM",
            "code" : "FTA"
          },
          {
            "code" : "FTA"
          },
          {
            "system" : "https://fhir.kbv.de/CodeSystem/KBV_CS_SFHIR_KBV_DARREICHUNGSFORM"
          }]
        },
        "ingredient" : [{
          "itemCodeableConcept" : {
            "text" : "Dasatinib"
          }
        },
        {
          "strength" : {
            "denominator" : {
              "unit" : "Stück"
            }
          }
        },
        {
          "strength" : {
            "denominator" : {
              "value" : 1
            }
          }
        },
        {
          "strength" : {
            "numerator" : {
              "unit" : "mg"
            }
          }
        },
        {
          "strength" : {
            "numerator" : {
              "value" : 100
            }
          }
        }]
      }
    }]
  }]
}