{
  "resourceType" : "Parameters",
  "parameter" : [{
    "name" : "rxPrescription",
    "part" : [{
      "name" : "prescriptionId",
      "valueIdentifier" : {
        "system" : "https://gematik.de/fhir/erp/NamingSystem/GEM_ERP_NS_PrescriptionId",
        "value" : "160.100.000.000.019.82"
      }
    },
    {
      "name" : "medicationRequest",
      "resource" : {
        "resourceType" : "MedicationRequest",
        "id" : "4a7eefdd-df71-4a72-8047-c158017534a1",
        "status" : "active",
        "intent" : "order",
        "medicationReference" : {
          "reference" : "Medication/86fa62c7-06a0-418e-ba26-e99baa053c07"
        },
        "authoredOn" : "2024-05-20",
        "requester" : {
          "reference" : "Practitioner/bc329f24-3d65-4286-bf06-b54dd6cad655"
        },
        "insurance" : [{
          "reference" : "Coverage/da80211e-61ee-458e-a651-87370b6ec30c"
        }],
        "dispenseRequest" : {
          "quantity" : {
            "value" : 1,
            "unit" : "Packung"
          }
        },
        "dosageInstruction" : [{
          "text" : "1-0-0-0"
        }],
        "note" : [{
          "text" : "Bitte längliche Tabletten, da Patient Probleme mit dem Schlucken von runden hat."
        }],
        "subject" : {
          "reference" : "Patient/ce4104af-b86b-4664-afee-1b5fc3ac8acf"
        }
      }
    },
    {
      "name" : "organization",
      "resource" : {
        "resourceType" : "Organization",
        "id" : "5d3f4ac0-2b44-4d48-b363-e63efa72973b",
        "identifier" : [{
          "type" : {
            "coding" : [{
              "system" : "http://terminology.hl7.org/CodeSystem/v2-0203",
              "code" : "BSNR"
            }]
          },
          "system" : "https://fhir.kbv.de/NamingSystem/KBV_NS_Base_BSNR",
          "value" : "721111100"
        }],
        "name" : "MVZ",
        "telecom" : [{
          "system" : "phone",
          "value" : "0301234567"
        },
        {
          "system" : "fax",
          "value" : "030123456789"
        },
        {
          "system" : "email",
          "value" : "mvz@e-mail.de"
        }],
        "address" : [{
          "type" : "both",
          "line" : ["Herbert-Lewin-Platz 2"],
          "_line" : [{
            "extension" : [{
              "url" : "http://hl7.org/fhir/StructureDefinition/iso21090-ADXP-houseNumber",
              "valueString" : "2"
            },
            {
              "url" : "http://hl7.org/fhir/StructureDefinition/iso21090-ADXP-streetName",
              "valueString" : "Herbert-Lewin-Platz"
            }]
          }],
          "city" : "Berlin",
          "postalCode" : "10623",
          "country" : "D"
        }]
      }
    },
    {
      "name" : "practitioner",
      "resource" : {
        "resourceType" : "Practitioner",
        "id" : "bc329f24-3d65-4286-bf06-b54dd6cad655",
        "identifier" : [{
          "type" : {
            "coding" : [{
              "system" : "http://terminology.hl7.org/CodeSystem/v2-0203",
              "code" : "LANR"
            }]
          },
          "system" : "https://fhir.kbv.de/NamingSystem/KBV_NS_Base_ANR",
          "value" : "123456628"
        }],
        "name" : [{
          "use" : "official",
          "family" : "Freiherr von Müller",
          "_family" : {
            "extension" : [{
              "url" : "http://hl7.org/fhir/StructureDefinition/humanname-own-prefix",
              "valueString" : "von"
            },
            {
              "url" : "http://fhir.de/StructureDefinition/humanname-namenszusatz",
              "valueString" : "Freiherr"
            },
            {
              "url" : "http://hl7.org/fhir/StructureDefinition/humanname-own-name",
              "valueString" : "Müller"
            }]
          },
          "given" : ["Paul"],
          "prefix" : ["Dr. med."],
          "_prefix" : [{
            "extension" : [{
              "url" : "http://hl7.org/fhir/StructureDefinition/iso21090-EN-qualifier",
              "valueCode" : "AC"
            }]
          }]
        }],
        "qualification" : [{
          "code" : {
            "coding" : [{
              "system" : "https://fhir.kbv.de/CodeSystem/KBV_CS_FOR_Berufsbezeichnung",
              "code" : "Berufsbezeichnung"
            }],
            "text" : "Facharzt für\u00a0Innere Medizin: Kardiologie"
          }
        }]
      }
    },
    {
      "name" : "medication",
      "resource" : {
        "resourceType" : "Medication",
        "id" : "86fa62c7-06a0-418e-ba26-e99baa053c07",
        "amount" : {
          "denominator" : {
            "value" : 1
          },
          "numerator" : {
            "unit" : "Stück"
          }
        },
        "code" : {
          "coding" : [{
            "system" : "https://fhir.kbv.de/CodeSystem/KBV_CS_ERP_Medication_Type",
            "code" : "wirkstoff"
          }]
        },
        "form" : {
          "text" : "Tabletten"
        },
        "ingredient" : [{
          "itemCodeableConcept" : {
            "coding" : [{
              "system" : "http://fhir.de/CodeSystem/ask",
              "code" : "22686"
            }]
          }
        },
        {
          "itemCodeableConcept" : {
            "coding" : [{
              "code" : "22686"
            }]
          }
        },
        {
          "itemCodeableConcept" : {
            "coding" : [{
              "system" : "http://fhir.de/CodeSystem/ask"
            }]
          }
        },
        {
          "itemCodeableConcept" : {
            "text" : "Ramipril"
          }
        },
        {
          "strength" : {
            "denominator" : {
              "unit" : "Stück"
            }
          }
        },
        {
          "strength" : {
            "denominator" : {
              "value" : 1
            }
          }
        },
        {
          "strength" : {
            "numerator" : {
              "unit" : "mg"
            }
          }
        },
        {
          "strength" : {
            "numerator" : {
              "value" : 5
            }
          }
        }]
      }
    }]
  }]
}