{
  "resourceType": "Bundle",
  "id": "45716f92-3c94-4a5b-8226-e23bf51af7ed",
  "meta": {
    "profile": [
      "https://gematik.de/fhir/erp/StructureDefinition/GEM_ERP_PR_Bundle_Pharmacy_Proof|1.3"
    ],
    "tag": [
      {
        "display": "Document Bundle for BfArM Approval of admissibility for doctor s prescription of narcotics"
      }
    ]
  },
  "type": "document",
  "identifier": {
    "system": "https://gematik.de/fhir/erp/NamingSystem/GEM_ERP_NS_PrescriptionId",
    "value": "160.000.033.491.280.78"
  },
  "signature": {
    "type": [
      {
        "system": "urn:iso-astm:E1762-95:2013",
        "code": "1.2.840.10065.1.12.1.1"
      }
    ],
    "when": "2023-08-18T15:28:00+00:00",
    "who": {
      "reference": "https://erp.zentral.erp.splitdns.ti-dienste.de/Device/1"
    },
    "sigFormat": "application/pkcs7-mime",
    "data": "dGhpcyBibG9iIGlzIHNuaXBwZWQ="
  },
  "timestamp": "2023-08-18T15:28:00+00:00",
  "entry": [
    {
      "fullUrl": "urn:uuid:c68de631-7faf-4c66-92df-8176a3ba9a20",
      "resource": {
        "resourceType": "Composition",
        "id": "c68de631-7faf-4c66-92df-8176a3ba9a20",
        "meta": {
          "profile": [
            "https://gematik.de/fhir/erp/StructureDefinition/GEM_ERP_PR_Composition_Pharmacy_Proof|1.3"
          ]
        },
        "status": "final",
        "title": "Dokumentation zur Belieferung von E-BtM Rezepten",
        "section": [
          {
            "code": {
              "coding": [
                {
                  "system": "https://gematik.de/fhir/erp/ValueSet/GEM_ERP_CS_DocumentType",
                  "code": "1",
                  "display": "Health Care Provider Prescription"
                }
              ]
            },
            "entry": [
              {
                "reference": "281a985c-f25b-4aae-91a6-41ad744080b0"
              }
            ]
          },
          {
            "code": {
              "coding": [
                {
                  "system": "https://gematik.de/fhir/erp/ValueSet/GEM_ERP_CS_DocumentType",
                  "code": "3",
                  "display": "Receipt"
                }
              ]
            },
            "entry": [
              {
                "reference": "ReceiptBundleQuittung"
              }
            ]
          },
          {
            "code": {
              "coding": [
                {
                  "system": "https://gematik.de/fhir/erp/ValueSet/GEM_ERP_CS_DocumentType",
                  "code": "7",
                  "display": "Dispense Information"
                }
              ]
            },
            "entry": [
              {
                "reference": "MedicationDispenseExample"
              }
            ]
          }
        ],
        "type": {
          "coding": [
            {
              "code": "6",
              "system": "https://gematik.de/fhir/erp/CodeSystem/GEM_ERP_CS_DocumentType",
              "display": "Documentation of Narcotics Dispense"
            }
          ]
        },
        "date": "2022-03-19T15:29:00+00:00",
        "author": [
          {
            "reference": "https://erp.zentral.erp.splitdns.ti-dienste.de/Device/1"
          }
        ],
        "event": [
          {
            "period": {
              "start": "2022-03-19T15:28:00+00:00",
              "end": "2022-03-19T15:29:00+00:00"
            }
          }
        ]
      }
    },
    {
      "fullUrl": "urn:uuid:281a985c-f25b-4aae-91a6-41ad744080b0",
      "resource": {
        "resourceType": "Binary",
        "id": "34fdbc14-3fae-4626-b600-9ccddeef55e9",
        "meta": {
          "profile": [
            "https://gematik.de/fhir/erp/StructureDefinition/GEM_ERP_PR_Binary|1.2"
          ]
        },
        "contentType": "application/octet-stream",
        "data": "SGllciBrw7ZubnRlIElocmUgUUVTIGVpbmVzIEUtQnRNLVJlemVwdGVzIHN0ZWhlbi4="
      }
    },
    {
      "fullUrl": "urn:uuid:dffbfd6a-5712-4798-bdc8-07201eb77ab8",
      "resource": {
        "resourceType": "Bundle",
        "id": "dffbfd6a-5712-4798-bdc8-07201eb77ab8",
        "meta": {
          "profile": [
            "https://gematik.de/fhir/erp/StructureDefinition/GEM_ERP_PR_Bundle|1.3"
          ],
          "tag": [
            {
              "display": "Receipt Bundle 'Quittung' for completed dispensation of a prescription"
            }
          ]
        },
        "type": "document",
        "identifier": {
          "system": "https://gematik.de/fhir/erp/NamingSystem/GEM_ERP_NS_PrescriptionId",
          "value": "160.000.033.491.280.78"
        },
        "signature": {
          "type": [
            {
              "system": "urn:iso-astm:E1762-95:2013",
              "code": "1.2.840.10065.1.12.1.1"
            }
          ],
          "when": "2022-03-18T15:28:00+00:00",
          "who": {
            "reference": "https://erp.zentral.erp.splitdns.ti-dienste.de/Device/1"
          },
          "sigFormat": "application/pkcs7-mime",
          "data": "dGhpcyBibG9iIGlzIHNuaXBwZWQ="
        },
        "timestamp": "2022-03-18T15:28:00+00:00",
        "entry": [
          {
            "fullUrl": "urn:uuid:c624cf47-e235-4624-af71-0a09dc9254dc",
            "resource": {
              "resourceType": "Composition",
              "id": "c624cf47-e235-4624-af71-0a09dc9254dc",
              "meta": {
                "profile": [
                  "https://gematik.de/fhir/erp/StructureDefinition/GEM_ERP_PR_Composition|1.3"
                ]
              },
              "status": "final",
              "title": "Quittung",
              "extension": [
                {
                  "url": "https://gematik.de/fhir/erp/StructureDefinition/GEM_ERP_EX_Beneficiary",
                  "valueIdentifier": {
                    "system": "https://gematik.de/fhir/sid/telematik-id",
                    "value": "3-SMC-B-Testkarte-883110000129070"
                  }
                }
              ],
              "type": {
                "coding": [
                  {
                    "code": "3",
                    "system": "https://gematik.de/fhir/erp/CodeSystem/GEM_ERP_CS_DocumentType",
                    "display": "Receipt"
                  }
                ]
              },
              "date": "2022-03-18T15:29:00+00:00",
              "author": [
                {
                  "reference": "https://erp.zentral.erp.splitdns.ti-dienste.de/Device/1"
                }
              ],
              "event": [
                {
                  "period": {
                    "start": "2022-03-18T15:28:00+00:00",
                    "end": "2022-03-18T15:29:00+00:00"
                  }
                }
              ],
              "section": [
                {
                  "entry": [
                    {
                      "reference": "Binary/PrescriptionDigest-160.123.456.789.123.58"
                    }
                  ]
                }
              ]
            }
          },
          {
            "fullUrl": "https://erp.zentral.erp.splitdns.ti-dienste.de/Device/1",
            "resource": {
              "resourceType": "Device",
              "id": "1",
              "meta": {
                "profile": [
                  "https://gematik.de/fhir/erp/StructureDefinition/GEM_ERP_PR_Device|1.3"
                ]
              },
              "status": "active",
              "serialNumber": "1.4.0",
              "deviceName": [
                {
                  "name": "E-Rezept-Fachdienst",
                  "type": "user-friendly-name"
                }
              ],
              "version": [
                {
                  "value": "1.4.0"
                }
              ],
              "contact": [
                {
                  "system": "email",
                  "value": "betrieb@gematik.de"
                }
              ]
            }
          },
          {
            "fullUrl": "https://erp.zentral.erp.splitdns.ti-dienste.de/Task/160.000.080.761.527.39/PrescriptionDigest-160.123.456.789.123.58",
            "resource": {
              "resourceType": "Binary",
              "id": "PrescriptionDigest-160.123.456.789.123.58",
              "meta": {
                "profile": [
                  "https://gematik.de/fhir/erp/StructureDefinition/GEM_ERP_PR_Digest|1.2"
                ]
              },
              "contentType": "application/octet-stream",
              "data": "tJg8c5ZtdhzEEhJ0ZpAsUVFx5dKuYgQFs5oKgthi17M="
            }
          }
        ]
      }
    },
    {
      "fullUrl": "urn:uuid:83e1e4da-79e8-49e8-8569-1e96f65dfac0",
      "resource": {
        "resourceType": "MedicationDispense",
        "id": "83e1e4da-79e8-49e8-8569-1e96f65dfac0",
        "meta": {
          "profile": [
            "https://gematik.de/fhir/erp/StructureDefinition/GEM_ERP_PR_MedicationDispense|1.2"
          ]
        },
        "identifier": [
          {
            "system": "https://gematik.de/fhir/erp/NamingSystem/GEM_ERP_NS_PrescriptionId",
            "value": "160.000.040.327.751.54"
          }
        ],
        "contained": [
          {
            "resourceType": "Medication",
            "id": "bdcc7002-d2c2-46d5-ac71-4f6b96ae6c0c",
            "meta": {
              "profile": [
                "https://fhir.kbv.de/StructureDefinition/KBV_PR_ERP_Medication_PZN|1.1.0"
              ]
            },
            "extension": [
              {
                "url": "https://fhir.kbv.de/StructureDefinition/KBV_EX_Base_Medication_Type",
                "valueCodeableConcept": {
                  "coding": [
                    {
                      "code": "763158003",
                      "system": "http://snomed.info/sct",
                      "display": "Medicinal product (product)",
                      "version": "http://snomed.info/sct/900000000000207008/version/20220331"
                    }
                  ]
                }
              },
              {
                "url": "https://fhir.kbv.de/StructureDefinition/KBV_EX_ERP_Medication_Category",
                "valueCoding": {
                  "code": "00",
                  "system": "https://fhir.kbv.de/CodeSystem/KBV_CS_ERP_Medication_Category"
                }
              },
              {
                "url": "https://fhir.kbv.de/StructureDefinition/KBV_EX_ERP_Medication_Vaccine",
                "valueBoolean": false
              },
              {
                "url": "http://fhir.de/StructureDefinition/normgroesse",
                "valueCode": "NB"
              }
            ],
            "amount": {
              "denominator": {
                "value": 1
              },
              "numerator": {
                "unit": "Stk",
                "extension": [
                  {
                    "url": "https://fhir.kbv.de/StructureDefinition/KBV_EX_ERP_Medication_PackagingSize",
                    "valueString": "1"
                  }
                ]
              }
            },
            "code": {
              "text": "Schmerzmittel",
              "coding": [
                {
                  "code": "12345678",
                  "system": "http://fhir.de/CodeSystem/ifa/pzn"
                }
              ]
            },
            "form": {
              "coding": [
                {
                  "code": "TAB",
                  "system": "https://fhir.kbv.de/CodeSystem/KBV_CS_SFHIR_KBV_DARREICHUNGSFORM"
                }
              ]
            }
          }
        ],
        "medicationReference": {
          "reference": "#bdcc7002-d2c2-46d5-ac71-4f6b96ae6c0c"
        },
        "subject": {
          "identifier": {
            "system": "http://fhir.de/sid/gkv/kvid-10",
            "value": "X110498565"
          }
        },
        "whenHandedOver": "2023-04-21",
        "performer": [
          {
            "actor": {
              "identifier": {
                "system": "https://gematik.de/fhir/sid/telematik-id",
                "value": "3-SMC-B-Testkarte-883110000116873"
              }
            }
          }
        ],
        "status": "completed"
      }
    }
  ]
}
