{
  "resourceType": "Bundle",
  "id": "85d581e4-0153-4899-9bfa-f78d36ad8d82",
  "meta": {
    "profile": [
      "https://fhir.kbv.de/StructureDefinition/KBV_PR_ERP_Bundle|1.3"
    ]
  },
  "identifier": {
    "system": "https://gematik.de/fhir/erp/NamingSystem/GEM_ERP_NS_PrescriptionId",
    "value": "160.100.000.000.030.49"
  },
  "type": "document",
  "timestamp": "2024-05-20T08:30:00+00:00",
  "entry": [
    {
      "fullUrl": "http://pvs.praxis-topp-gluecklich.local/fhir/Composition/f965cb71-b3e9-4ab6-9209-333f39da3b20",
      "resource": {
        "resourceType": "Composition",
        "id": "f965cb71-b3e9-4ab6-9209-333f39da3b20",
        "meta": {
          "profile": [
            "https://fhir.kbv.de/StructureDefinition/KBV_PR_ERP_Composition|1.3"
          ]
        },
        "status": "final",
        "type": {
          "coding": [
            {
              "system": "https://fhir.kbv.de/CodeSystem/KBV_CS_SFHIR_KBV_FORMULAR_ART",
              "code": "e16A"
            }
          ]
        },
        "date": "2024-05-20T08:00:00Z",
        "author": [
          {
            "reference": "Practitioner/20597e0e-cb2a-45b3-95f0-dc3dbdb617c3",
            "type": "Practitioner"
          },
          {
            "type": "Device",
            "identifier": {
              "system": "https://fhir.kbv.de/NamingSystem/KBV_NS_FOR_Pruefnummer",
              "value": "Y/400/1910/36/523"
            }
          }
        ],
        "title": "elektronische Arzneimittelverordnung",
        "custodian": {
          "reference": "Organization/cf042e44-086a-4d51-9c77-172f9a972e3b"
        },
        "section": [
          {
            "code": {
              "coding": [
                {
                  "system": "https://fhir.kbv.de/CodeSystem/KBV_CS_ERP_Section_Type",
                  "code": "PracticeSupply"
                }
              ]
            },
            "entry": [
              {
                "reference": "SupplyRequest/3dd54b78-65e2-4ac2-8e65-66b769ad1d95"
              }
            ]
          }
        ]
      }
    },
    {
      "fullUrl": "http://pvs.praxis-topp-gluecklich.local/fhir/SupplyRequest/3dd54b78-65e2-4ac2-8e65-66b769ad1d95",
      "resource": {
        "resourceType": "SupplyRequest",
        "id": "3dd54b78-65e2-4ac2-8e65-66b769ad1d95",
        "meta": {
          "profile": [
            "https://fhir.kbv.de/StructureDefinition/KBV_PR_ERP_PracticeSupply|1.3"
          ]
        },
        "extension": [
          {
            "extension": [
              {
                "url": "IK",
                "valueIdentifier": {
                  "system": "http://fhir.de/sid/arge-ik/iknr",
                  "value": "123456789"
                }
              },
              {
                "url": "Name",
                "valueString": "Dummy-Kostentraeger"
              },
              {
                "url": "Kostentraegertyp",
                "valueCoding": {
                  "system": "http://fhir.de/CodeSystem/versicherungsart-de-basis",
                  "code": "GKV"
                }
              }
            ],
            "url": "https://fhir.kbv.de/StructureDefinition/KBV_EX_ERP_PracticeSupply_Payor"
          }
        ],
        "itemReference": {
          "reference": "Medication/a0553ad5-56bc-446c-91de-70f0260b4e7a"
        },
        "quantity": {
          "value": 1,
          "unit": "Packung"
        },
        "authoredOn": "2024-05-20",
        "requester": {
          "reference": "Practitioner/20597e0e-cb2a-45b3-95f0-dc3dbdb617c3"
        }
      }
    },
    {
      "fullUrl": "http://pvs.praxis-topp-gluecklich.local/fhir/Medication/a0553ad5-56bc-446c-91de-70f0260b4e7a",
      "resource": {
        "resourceType": "Medication",
        "id": "a0553ad5-56bc-446c-91de-70f0260b4e7a",
        "meta": {
          "profile": [
            "https://fhir.kbv.de/StructureDefinition/KBV_PR_ERP_Medication_FreeText|1.3"
          ]
        },
        "extension": [
          {
            "url": "https://fhir.kbv.de/StructureDefinition/KBV_EX_ERP_Medication_Category",
            "valueCoding": {
              "system": "https://fhir.kbv.de/CodeSystem/KBV_CS_ERP_Medication_Category",
              "code": "00"
            }
          },
          {
            "url": "https://fhir.kbv.de/StructureDefinition/KBV_EX_ERP_Medication_Vaccine",
            "valueBoolean": true
          }
        ],
        "code": {
          "coding": [
            {
              "system": "https://fhir.kbv.de/CodeSystem/KBV_CS_ERP_Medication_Type",
              "code": "freitext"
            }
          ],
          "text": "Dummy-Impfstoff als Freitext"
        }
      }
    },
    {
      "fullUrl": "http://pvs.praxis-topp-gluecklich.local/fhir/Practitioner/20597e0e-cb2a-45b3-95f0-dc3dbdb617c3",
      "resource": {
        "resourceType": "Practitioner",
        "id": "20597e0e-cb2a-45b3-95f0-dc3dbdb617c3",
        "meta": {
          "profile": [
            "https://fhir.kbv.de/StructureDefinition/KBV_PR_FOR_Practitioner|1.2"
          ]
        },
        "identifier": [
          {
            "type": {
              "coding": [
                {
                  "system": "http://terminology.hl7.org/CodeSystem/v2-0203",
                  "code": "LANR"
                }
              ]
            },
            "system": "https://fhir.kbv.de/NamingSystem/KBV_NS_Base_ANR",
            "value": "838382202"
          }
        ],
        "name": [
          {
            "use": "official",
            "family": "Topp-Glücklich",
            "_family": {
              "extension": [
                {
                  "url": "http://hl7.org/fhir/StructureDefinition/humanname-own-name",
                  "valueString": "Topp-Glücklich"
                }
              ]
            },
            "given": [
              "Hans"
            ],
            "prefix": [
              "Dr. med."
            ],
            "_prefix": [
              {
                "extension": [
                  {
                    "url": "http://hl7.org/fhir/StructureDefinition/iso21090-EN-qualifier",
                    "valueCode": "AC"
                  }
                ]
              }
            ]
          }
        ],
        "qualification": [
          {
            "code": {
              "coding": [
                {
                  "system": "https://fhir.kbv.de/CodeSystem/KBV_CS_FOR_Qualification_Type",
                  "code": "00"
                }
              ]
            }
          },
          {
            "code": {
              "coding": [
                {
                  "system": "https://fhir.kbv.de/CodeSystem/KBV_CS_FOR_Berufsbezeichnung",
                  "code": "Berufsbezeichnung"
                }
              ],
              "text": "Facharzt für Innere Medizin: Kardiologie"
            }
          }
        ]
      }
    },
    {
      "fullUrl": "http://pvs.praxis-topp-gluecklich.local/fhir/Organization/cf042e44-086a-4d51-9c77-172f9a972e3b",
      "resource": {
        "resourceType": "Organization",
        "id": "cf042e44-086a-4d51-9c77-172f9a972e3b",
        "meta": {
          "profile": [
            "https://fhir.kbv.de/StructureDefinition/KBV_PR_FOR_Organization|1.2"
          ]
        },
        "identifier": [
          {
            "type": {
              "coding": [
                {
                  "system": "http://terminology.hl7.org/CodeSystem/v2-0203",
                  "code": "BSNR"
                }
              ]
            },
            "system": "https://fhir.kbv.de/NamingSystem/KBV_NS_Base_BSNR",
            "value": "031234567"
          }
        ],
        "name": "Hausarztpraxis Dr. Topp-Glücklich",
        "telecom": [
          {
            "system": "phone",
            "value": "0301234567"
          }
        ],
        "address": [
          {
            "type": "both",
            "line": [
              "Musterstr. 2"
            ],
            "_line": [
              {
                "extension": [
                  {
                    "url": "http://hl7.org/fhir/StructureDefinition/iso21090-ADXP-houseNumber",
                    "valueString": "2"
                  },
                  {
                    "url": "http://hl7.org/fhir/StructureDefinition/iso21090-ADXP-streetName",
                    "valueString": "Musterstr."
                  }
                ]
              }
            ],
            "city": "Berlin",
            "postalCode": "10623"
          }
        ]
      }
    }
  ]
}